{
    "resourceType": "Bundle",
    "id": "ac33f993-f8bc-44fd-81be-9d0bbf3e6b3a",
    "type": "collection",
    "entry":  [
        {
            "resource": {
                "resourceType": "Composition",
                "id": "737fca6f-3e2e-434e-9ba0-962954030d00",
                "meta": {
                    "profile":  [
                        "http://uk-koeln.de/fhir/StructureDefinition/Composition/nNGM/Anmeldung-dotnet"
                    ]
                },
                "status": "final",
                "type":  [
                    {
                        "coding":  [
                            {
                                "system": "http://uk-koeln.de/fhir/CodeSystem/nngm/compositions",
                                "code": "anmeldung"
                            }
                        ]
                    }
                ],
                "category":  [
                    {
                        "coding":  [
                            {
                                "system": "http://uk-koeln.de/fhir/CodeSystem/nngm/composition-category",
                                "code": "idat"
                            }
                        ]
                    }
                ],
                "subject": {
                    "reference": "https://vonk.fhir.dev.healex.systems/administration/Patient/ZK82KVLQ"
                },
                "date": "2020-01-01",
                "author": {
                    "reference": "Practitioner/44004abd-9ba0-434e-9ba0-962954030d00"
                },
                "title": "Anmeldung",
                "section":  [
                    {
                        "code":  [
                            {
                                "coding":  [
                                    {
                                        "system": "http://uk-koeln.de/fhir/CodeSystem/nngm/sections",
                                        "code": "stammdaten"
                                    }
                                ]
                            }
                        ],
                        "entry":  [
                            {
                                "reference": "Patient/737fca6f-3e2e-434e-bc8e-962954030d00"
							},
							{
                                "reference": "Organization/70c389c2-4cb6-445c-99f7-df982132c5ca"
							}
                        ]
                    },
                    {
                        "code":  [
                            {
                                "coding":  [
                                    {
                                        "system": "http://uk-koeln.de/fhir/CodeSystem/nngm/sections",
                                        "code": "anforderung"
                                    }
                                ]
                            }
                        ],
                        "entry":  [
                            {
                                "reference": "Patient/737fca6f-3e2e-434e-bc8e-962954030d00"
							},
							{
                                "reference": "ServiceRequest/631e7375-8326-492a-93d8-aa88a3eda948"
                            }
                        ]
                    },
                    {
                        "code":  [
                            {
                                "coding":  [
                                    {
                                        "system": "http://uk-koeln.de/fhir/CodeSystem/nngm/sections",
                                        "code": "tnm"
                                    }
                                ]
                            }
                        ],
                        "entry":  [
                            {
                                "reference": "Patient/737fca6f-3e2e-434e-bc8e-962954030d00"
                            }
                        ]
                    }
                ]
            }
        },
        {
            "resource": {
                "resourceType": "EpisodeOfCare",
                "id": "44004abd-154c-4f63-bc8e-714b3843ba27",
                "meta": {
                    "profile":  [
                        "http://uk-koeln.de/fhir/StructureDefinition/EpisodeOfCare/nNGM"
                    ]
                },
                "identifier":  [
                    {
                        "system": "http://uk-koeln.de/NamingSystem/nNGM/fallnummer",
                        "value": "1"
                    }
                ],
                "status": "active",
                "_status": {
                    "extension":  [
                        {
                            "url": "http://uk-koeln.de/fhir/StructureDefinition/Extension/nNGM/FollowUpStatus",
                            "valueCodeableConcept": {
                                "coding":  [
                                    {
                                        "system": "http://uk-koeln.de/fhir/CodeSystem/ngnm/FollowUpStatus",
                                        "code": "lebt"
                                    }
                                ]
                            }
                        }
                    ]
                },
                "patient": {
                    "reference": "https://vonk.fhir.dev.healex.systems/administration/Patient/ZK82KVLQ"
                },
                "extension":  [
                    {
                        "url": "http://uk-koeln.de/fhir/StructureDefinition/Extension/nNGM/abrechnungsinformation/letzterKontakt",
                        "valueDateTime": "2019-11-11"
                    },
                    {
                        "url": "http://uk-koeln.de/fhir/StructureDefinition/Extension/nNGM/datumProgress",
                        "valueDate": "2020-07-17"
                    }
                ]
            }
        },
        {
            "resource": {
                "resourceType": "Organization",
                "id": "70c389c2-4cb6-445c-99f7-df982132c5ca",
                "meta": {
                    "profile": "http://clinicalsite.org/fhir/StructureDefinition/organizationalunit"
                },
                "identifier":  [
                    {
                        "system": "http://healex.systems/fhir/NamingSystem/nNGMnetzwerkzentrumid",
                        "value": "Essen"
                    }
                ],
                "address":  [
                    {
                        "type": "postal",
                        "text": "Essen\n\nUniversitätsklinikum Essen\nHufelandstr. 55\n45147 Essen\n+49 (0) 201 723 50 70\n+49 (0) 201 723 16 14"
                    }
                ],
                "name": {
                    "extension":  [
                        {
                            "url": "http://hl7.org/fhir/StructureDefinition/data-absent-reason",
                            "valueCode": "not-asked"
                        }
                    ]
                }
            }
        },
        {
            "resource": {
                "resourceType": "ServiceRequest",
                "id": "9c6c6c76-4b2b-4c4a-a40e-b530ed25cb60",
                "meta": {
                    "profile":  [
                        "http://uk-koeln.de/fhir/StructureDefinition/ServiceRequest/nNGM/tumorboard"
                    ]
                },
                "subject": {
                    "reference": "https://vonk.fhir.dev.healex.systems/administration/Patient/ZK82KVLQ"
                },
                "status": "active",
                "intent": "proposal",
                "authoredOn": "2019-11-01",
                "code":  [
                    {
                        "coding":  [
                            {
                                "system": "http://ncit.nci.nih.gov",
                                "code": "C19165"
                            }
                        ]
                    }
                ],
                "encounter":  [
                    {
                        "extension":  [
                            {
                                "url": "http://uk-koeln.de/fhir/StructureDefinition/Extension/nNGM/aufenthaltsart",
                                "valueCodeableConcept": {
                                    "coding":  [
                                        {
                                            "system": " http://hl7.org/fhir/v3/ActCode",
                                            "code": "IMP",
                                            "display": "inpatient encounter"
                                        }
                                    ]
                                }
                            }
                        ]
                    }
                ],
                "requester":  [
                    {
                        "reference": "Practitioner/44004abd-9ba0-434e-9ba0-962954030d00",
                        "extension":  [
                            {
                                "url": "http://uk-koeln.de/fhir/StructureDefinition/Extension/nNGM/persoenlicheTeilnahme",
                                "valueBoolean": "true"
                            },
                            {
                                "url": "http://uk-koeln.de/fhir/StructureDefinition/Extension/nNGM/vorstellung-tmb",
                                "valueBoolean": "false"
                            }
                        ]
                    }
                ]
            }
        },
        {
            "resource": {
                "resourceType": "ServiceRequest",
                "id": "631e7375-8326-492a-93d8-aa88a3eda948",
                "meta": {
                    "profile":  [
                        "http://uk-koeln.de/fhir/StructureDefinition/ServiceRequest/nNGM/testung"
                    ]
                },
                "subject": {
                    "reference": "https://vonk.fhir.dev.healex.systems/administration/Patient/ZK82KVLQ"
                },
                "status": "active",
                "intent": "proposal",
                "authoredOn": {
                    "extension":  [
                        {
                            "url": "http://hl7.org/fhir/StructureDefinition/data-absent-reason",
                            "valueCode": "not-asked"
                        }
                    ]
                },
                "category":  [
                    {
                        "coding":  [
                            {
                                "system": "http://ncit.nci.nih.gov",
                                "code": "C12801",
                                "display": "Gewebediagnostik"
                            }
                        ]
                    }
                ],
                "code":  [
                    {
                        "coding":  [
                            {
                                "system": "http://ncit.nci.nih.gov",
                                "code": "komplette_untersuchung",
                                "display": "Komplette Untersuchung"
                            }
                        ]
                    }
                ]
            }
        },
        {
            "resource": {
                "resourceType": "ServiceRequest",
                "id": "746c8b63-2f9b-4ba0-8142-12bd370b4cb8",
                "meta": {
                    "profile":  [
                        "http://uk-koeln.de/fhir/StructureDefinition/ServiceRequest/nNGM/tumorblock"
                    ]
                },
                "subject": {
                    "reference": "https://vonk.fhir.dev.healex.systems/administration/Patient/ZK82KVLQ"
                },
                "status": "active",
                "intent": "proposal",
                "code":  [
                    {
                        "coding":  [
                            {
                                "system": "http://ncit.nci.nih.gov",
                                "code": "C18202"
                            }
                        ]
                    }
                ],
                "doNotPerform": "true",
                "extension":  [
                    {
                        "url": "http://uk-koeln.de/fhir/StructureDefinition/Extension/nNGM/grundEntfallBlockAnforderung",
                        "valueCodeableConcept": {
                            "coding":  [
                                {
                                    "system": "http://uk-koeln.de/fhir/CodeSystem/nngm/grundEntfallBlockAnforderung",
                                    "code": "innerePathologie",
                                    "display": "Antrag interne Pathologie"
                                }
                            ]
                        }
                    }
                ]
            }
        },
        {
            "resource": {
                "resourceType": "Coverage",
                "id": "4f50dd7b-f988-4a22-8def-a754e754e296",
                "meta": {
                    "profile":  [
                        "http://uk-koeln.de/fhir/StructureDefinition/Coverage/nNGM"
                    ]
                },
                "extension":  [
                    {
                        "url": "http://uk-koeln.de/fhir/StructureDefinition/Extension/nNGM/kooperationsvereinbarung",
                        "valueBoolean": "true"
                    }
                ],
                "identifier":  [
                    {
                        "type":  [
                            {
                                "coding":  [
                                    {
                                        "system": "http://fhir.de/CodeSystem/identifier-type-de-basis",
                                        "code": "GKV"
                                    }
                                ]
                            }
                        ],
                        "system": "http://fhir.de/NamingSystem/gkv/kvid-10",
                        "value": "9999"
                    }
                ],
                "status": "active",
                "beneficiary": {
                    "reference": {
                        "extension":  [
                            {
                                "url": "http://hl7.org/fhir/StructureDefinition/data-absent-reason",
                                "valueCode": "not-asked"
                            }
                        ]
                    }
                },
                "payor":  [
                    {
                        "display": "AOK Rheinland/Hamburg",
                        "extension":  [
                            {
                                "url": "http://uk-koeln.de/fhir/StructureDefinition/Extension/nNGM/abrechnungsinformation",
                                "valueCodeableConcept": {
                                    "coding":  [
                                        {
                                            "system": "http://uk-koeln.de/fhir/ValueSet/nngm/abrechnungsinformation",
                                            "code": "nNGM-BV Fall",
                                            "display": "nNGM-BV Fall"
                                        }
                                    ]
                                }
                            }
                        ]
                    }
                ],
                "type": {
                    "coding":  [
                        {
                            "system": "http://fhir.de/ValueSet/versicherungsart-de-basis",
                            "code": "GKV"
                        }
                    ]
                }
            }
        },
        {
            "resource": {
                "resourceType": "Observation",
                "id": "6bec35a2-7cd8-43e9-9930-b01054419361",
                "meta": {
                    "profile":  [
                        "http://uk-koeln.de/fhir/StructureDefinition/Observation/nNGM/koerpergroesse"
                    ]
                },
                "status": "final",
                "extension":  [
                    {
                        "url": "http://hl7.org/fhir/StructureDefinition/workflow-episodeOfCare",
                        "valueReference":  [
                            {
                                "reference:": "EpisodeOfCare/44004abd-154c-4f63-bc8e-714b3843ba27"
                            }
                        ]
                    }
                ],
                "effectiveDateTime":  [
                    {
                        "extension":  [
                            {
                                "url": "http://hl7.org/fhir/StructureDefinition/data-absent-reason",
                                "valueCode": "not-asked"
                            }
                        ]
                    }
                ],
                "category":  [
                    {
                        "coding":  [
                            {
                                "system": "http://terminology.hl7.org/CodeSystem/observation-category",
                                "code": "vital-signs"
                            }
                        ]
                    }
                ],
                "code": {
                    "coding":  [
                        {
                            "system": "http://loinc.org",
                            "code": "8302-2"
                        }
                    ]
                },
                "subject": {
                    "reference": "https://vonk.fhir.dev.healex.systems/administration/Patient/ZK82KVLQ"
                },
                "encounter": {
                    "reference": {
                        "extension":  [
                            {
                                "url": "http://hl7.org/fhir/StructureDefinition/data-absent-reason",
                                "valueCode": "not-asked"
                            }
                        ]
                    }
                },
                "valueQuantity": {
                    "system": "http://unitsofmeasure.org",
                    "unit": "centimeter",
                    "code": "cm",
                    "value": 166
                }
            }
        },
        {
            "resource": {
                "resourceType": "Observation",
                "id": "01ac21c2-7216-489f-b333-251f3570c570",
                "meta": {
                    "profile":  [
                        "http://uk-koeln.de/fhir/StructureDefinition/Observation/nNGM/koerpergewicht"
                    ]
                },
                "status": "final",
                "extension":  [
                    {
                        "url": "http://hl7.org/fhir/StructureDefinition/workflow-episodeOfCare",
                        "valueReference":  [
                            {
                                "reference:": "EpisodeOfCare/44004abd-154c-4f63-bc8e-714b3843ba27"
                            }
                        ]
                    }
                ],
                "effectiveDateTime":  [
                    {
                        "extension":  [
                            {
                                "url": "http://hl7.org/fhir/StructureDefinition/data-absent-reason",
                                "valueCode": "not-asked"
                            }
                        ]
                    }
                ],
                "category":  [
                    {
                        "coding":  [
                            {
                                "system": "http://terminology.hl7.org/CodeSystem/observation-category",
                                "code": "vital-signs"
                            }
                        ]
                    }
                ],
                "code": {
                    "coding":  [
                        {
                            "system": "http://loinc.org",
                            "code": "29463-7"
                        }
                    ]
                },
                "subject": {
                    "reference": "https://vonk.fhir.dev.healex.systems/administration/Patient/ZK82KVLQ"
                },
                "encounter": {
                    "reference": {
                        "extension":  [
                            {
                                "url": "http://hl7.org/fhir/StructureDefinition/data-absent-reason",
                                "valueCode": "not-asked"
                            }
                        ]
                    }
                },
                "valueQuantity": {
                    "system": "http://unitsofmeasure.org",
                    "unit": "kilogram",
                    "code": "kg",
                    "value": 66
                }
            }
        },
        {
            "resource": {
                "resourceType": "Observation",
                "id": "a6f386ad-fd7e-4c56-8a3a-b153d557aeeb",
                "meta": {
                    "profile": "http://uk-koeln.de/fhir/StructureDefinition/Observation/nNGM/ecog"
                },
                "status": "final",
                "extension":  [
                    {
                        "url": "http://hl7.org/fhir/StructureDefinition/workflow-episodeOfCare",
                        "valueReference":  [
                            {
                                "reference:": "EpisodeOfCare/44004abd-154c-4f63-bc8e-714b3843ba27"
                            }
                        ]
                    }
                ],
                "category":  [
                    {
                        "coding":  [
                            {
                                "system": "http://hl7.org/fhir/observation-category",
                                "code": "survey"
                            }
                        ]
                    }
                ],
                "code": {
                    "coding":  [
                        {
                            "system": "http://loinc.org",
                            "code": "89247-1"
                        }
                    ]
                },
                "subject": {
                    "reference": "https://vonk.fhir.dev.healex.systems/administration/Patient/ZK82KVLQ"
                },
                "encounter": {
                    "reference": {
                        "extension":  [
                            {
                                "url": "http://hl7.org/fhir/StructureDefinition/data-absent-reason",
                                "valueCode": "not-asked"
                            }
                        ]
                    }
                },
                "valueCodeableConcept": {
                    "coding":  [
                        {
                            "system": "http://loinc.org/vs/LL529-9",
                            "code": "LA9624-3",
                            "display": "1 - Einschränkung bei körperlicher Anstrengung, gehfähig, leichte körperliche Arbeit möglich"
                        }
                    ]
                }
            }
        },
        {
            "resource": {
                "resourceType": "Observation",
                "id": "af213e2c-dfd2-4d93-8d67-ef0d3e0a740b",
                "meta": {
                    "profile":  [
                        "http://uk-koeln.de/fhir/StructureDefinition/Observation/nNGM/raucherstatus"
                    ]
                },
                "status": "final",
                "category":  [
                    {
                        "coding":  [
                            {
                                "system": "http://hl7.org/fhir/observation-category",
                                "code": "social-history"
                            }
                        ]
                    }
                ],
                "code": {
                    "coding":  [
                        {
                            "system": "http://loinc.org",
                            "code": "72166-2"
                        }
                    ]
                },
                "subject": {
                    "reference": "https://vonk.fhir.dev.healex.systems/administration/Patient/ZK82KVLQ"
                },
                "encounter": {
                    "reference": {
                        "extension":  [
                            {
                                "url": "http://hl7.org/fhir/StructureDefinition/data-absent-reason",
                                "valueCode": "not-asked"
                            }
                        ]
                    }
                },
                "valueCodeableConcept": {
                    "coding":  [
                        {
                            "system": "http://uk-koeln.de/fhir/ValueSet/nngm/raucherstatus",
                            "code": "er",
                            "display": "Ex-Raucher"
                        }
                    ]
                },
                "component":  [
                    {
                        "code": {
                            "coding":  [
                                {
                                    "system": "http://ncit.nci.nih.gov",
                                    "code": "C73993"
                                }
                            ]
                        },
                        "valueQuantity": {
                            "unit": "pack years",
                            "system": "http://unitsofmeasure.org",
                            "code": "1{pack years}",
                            "value": 10
                        }
                    },
                    {
                        "code": {
                            "coding":  [
                                {
                                    "system": "http://ncit.nci.nih.gov",
                                    "code": "C127065"
                                }
                            ]
                        },
                        "valueDateTime": "1995-01"
                    }
                ]
            }
        },
        {
            "resource": {
                "resourceType": "Consent",
                "id": "e74102f3-e991-4921-8922-82e00be218ba",
                "meta": {
                    "profile":  [
                        "http://uk-koeln.de/fhir/StructureDefinition/Consent/nNGM"
                    ]
                },
                "status": "active",
                "scope": {
                    "coding":  [
                        {
                            "system": "http://terminology.hl7.org/CodeSystem/consentscope",
                            "code": "patient-privacy"
                        }
                    ]
                },
                "category":  [
                    {
                        "coding":  [
                            {
                                "system": "http://loinc.org",
                                "code": "59284-0"
                            }
                        ]
                    }
                ],
                "patient": {
                    "reference": "https://vonk.fhir.dev.healex.systems/administration/Patient/ZK82KVLQ"
                },
                "provision": {
                    "type": "permit"
                },
                "policy":  [
                    {
                        "authority": "https://www.nngm.de/"
                    }
                ],
                "policyRule":  [
                    {
                        "coding":  [
                            {
                                "system": "http://uk-koeln.de/fhir/CodeSystem/nngm/nngm-consent-policy",
                                "code": "TE",
                                "display": "Teilnahmeerklärung"
                            }
                        ]
                    }
                ],
                "dateTime": "2019-11-01"
            }
        },
        {
            "resource": {
                "resourceType": "Consent",
                "id": "1b4aa9e5-11ad-46d0-a77c-81d4ea909e08",
                "meta": {
                    "profile":  [
                        "http://uk-koeln.de/fhir/StructureDefinition/Consent/nNGM"
                    ]
                },
                "status": "active",
                "scope": {
                    "coding":  [
                        {
                            "system": "http://terminology.hl7.org/CodeSystem/consentscope",
                            "code": "patient-privacy"
                        }
                    ]
                },
                "category":  [
                    {
                        "coding":  [
                            {
                                "system": "http://loinc.org",
                                "code": "59284-0"
                            }
                        ]
                    }
                ],
                "patient": {
                    "reference": "https://vonk.fhir.dev.healex.systems/administration/Patient/ZK82KVLQ"
                },
                "provision": {
                    "type": "permit"
                },
                "policy":  [
                    {
                        "authority": "https://www.nngm.de/"
                    }
                ],
                "policyRule":  [
                    {
                        "coding":  [
                            {
                                "system": "http://uk-koeln.de/fhir/CodeSystem/nngm/nngm-consent-policy",
                                "code": "DS",
                                "display": "Datenschutzerklärung"
                            }
                        ]
                    }
                ],
                "dateTime": "2019-11-01"
            }
        },
        {
            "resource": {
                "resourceType": "Consent",
                "id": "70964f07-131d-4d4e-837d-603ec01085c0",
                "meta": {
                    "profile":  [
                        "http://uk-koeln.de/fhir/StructureDefinition/Consent/nNGM"
                    ]
                },
                "status": "active",
                "scope": {
                    "coding":  [
                        {
                            "system": "http://terminology.hl7.org/CodeSystem/consentscope",
                            "code": "patient-privacy"
                        }
                    ]
                },
                "category":  [
                    {
                        "coding":  [
                            {
                                "system": "http://loinc.org",
                                "code": "59284-0"
                            }
                        ]
                    }
                ],
                "patient": {
                    "reference": "https://vonk.fhir.dev.healex.systems/administration/Patient/ZK82KVLQ"
                },
                "provision": {
                    "type": "permit"
                },
                "policy":  [
                    {
                        "authority": "https://www.nngm.de/"
                    }
                ],
                "policyRule":  [
                    {
                        "coding":  [
                            {
                                "system": "http://uk-koeln.de/fhir/CodeSystem/nngm/nngm-consent-policy",
                                "code": "1a",
                                "display": "Teil 1a: Molekularpathologische Diagnostik im nNGM"
                            }
                        ]
                    }
                ],
                "dateTime": "2019-11-01"
            }
        },
        {
            "resource": {
                "resourceType": "Consent",
                "id": "f7be1a47-58c1-45be-96f7-7c9549940785",
                "meta": {
                    "profile":  [
                        "http://uk-koeln.de/fhir/StructureDefinition/Consent/nNGM"
                    ]
                },
                "status": "active",
                "scope": {
                    "coding":  [
                        {
                            "system": "http://terminology.hl7.org/CodeSystem/consentscope",
                            "code": "patient-privacy"
                        }
                    ]
                },
                "category":  [
                    {
                        "coding":  [
                            {
                                "system": "http://loinc.org",
                                "code": "59284-0"
                            }
                        ]
                    }
                ],
                "patient": {
                    "reference": "https://vonk.fhir.dev.healex.systems/administration/Patient/ZK82KVLQ"
                },
                "provision": {
                    "type": "permit"
                },
                "policy":  [
                    {
                        "authority": "https://www.nngm.de/"
                    }
                ],
                "policyRule":  [
                    {
                        "coding":  [
                            {
                                "system": "http://uk-koeln.de/fhir/CodeSystem/nngm/nngm-consent-policy",
                                "code": "1b",
                                "display": "Teil 1b: Überregionale Beratung und Studiensuche im nNGM"
                            }
                        ]
                    }
                ],
                "dateTime": "2019-11-01"
            }
        },
        {
            "resource": {
                "resourceType": "Consent",
                "id": "d08ddcfd-623d-4626-9b2c-a50d96b6e841",
                "meta": {
                    "profile":  [
                        "http://uk-koeln.de/fhir/StructureDefinition/Consent/nNGM"
                    ]
                },
                "status": "active",
                "scope": {
                    "coding":  [
                        {
                            "system": "http://terminology.hl7.org/CodeSystem/consentscope",
                            "code": "patient-privacy"
                        }
                    ]
                },
                "category":  [
                    {
                        "coding":  [
                            {
                                "system": "http://loinc.org",
                                "code": "59284-0"
                            }
                        ]
                    }
                ],
                "patient": {
                    "reference": "https://vonk.fhir.dev.healex.systems/administration/Patient/ZK82KVLQ"
                },
                "provision": {
                    "type": "permit"
                },
                "policy":  [
                    {
                        "authority": "https://www.nngm.de/"
                    }
                ],
                "policyRule":  [
                    {
                        "coding":  [
                            {
                                "system": "http://uk-koeln.de/fhir/CodeSystem/nngm/nngm-consent-policy",
                                "code": "2",
                                "display": "Teil 2: Forschung im nNGM"
                            }
                        ]
                    }
                ],
                "dateTime": "2019-11-01"
            }
        },
        {
            "resource": {
                "resourceType": "Consent",
                "id": "440db436-f177-48ee-ad39-dd9ae0012b61",
                "meta": {
                    "profile":  [
                        "http://uk-koeln.de/fhir/StructureDefinition/Consent/nNGM"
                    ]
                },
                "status": "active",
                "scope": {
                    "coding":  [
                        {
                            "system": "http://terminology.hl7.org/CodeSystem/consentscope",
                            "code": "patient-privacy"
                        }
                    ]
                },
                "category":  [
                    {
                        "coding":  [
                            {
                                "system": "http://loinc.org",
                                "code": "59284-0"
                            }
                        ]
                    }
                ],
                "patient": {
                    "reference": "https://vonk.fhir.dev.healex.systems/administration/Patient/ZK82KVLQ"
                },
                "provision": {
                    "type": "permit"
                },
                "policy":  [
                    {
                        "authority": "https://www.nngm.de/"
                    }
                ],
                "policyRule":  [
                    {
                        "coding":  [
                            {
                                "system": "http://uk-koeln.de/fhir/CodeSystem/nngm/nngm-consent-policy",
                                "code": "MD",
                                "display": "Molekularpathologische Diagnostik im nNGM (Behandlungskontext)"
                            }
                        ]
                    }
                ],
                "dateTime": "2019-11-01"
            }
        },
        {
            "resource": {
                "resourceType": "Consent",
                "id": "b52c7bc2-4ad2-423a-a249-a216e10df3f1",
                "meta": {
                    "profile":  [
                        "http://uk-koeln.de/fhir/StructureDefinition/Consent/nNGM"
                    ]
                },
                "status": "active",
                "scope": {
                    "coding":  [
                        {
                            "system": "http://terminology.hl7.org/CodeSystem/consentscope",
                            "code": "patient-privacy"
                        }
                    ]
                },
                "category":  [
                    {
                        "coding":  [
                            {
                                "system": "http://loinc.org",
                                "code": "59284-0"
                            }
                        ]
                    }
                ],
                "patient": {
                    "reference": "https://vonk.fhir.dev.healex.systems/administration/Patient/ZK82KVLQ"
                },
                "provision": {
                    "type": "permit"
                },
                "policy":  [
                    {
                        "authority": "https://www.nngm.de/"
                    }
                ],
                "policyRule":  [
                    {
                        "coding":  [
                            {
                                "system": "http://uk-koeln.de/fhir/CodeSystem/nngm/nngm-consent-policy",
                                "code": "ST",
                                "display": "Überregionale Beratung und Studiensuche im nNGM (Behandlungskontext)"
                            }
                        ]
                    }
                ],
                "dateTime": "2019-11-01"
            }
        },
        {
            "resource": {
                "resourceType": "Consent",
                "id": "75680eb2-7ad1-47e9-a2e4-ed1a4b9dd3a8",
                "meta": {
                    "profile":  [
                        "http://uk-koeln.de/fhir/StructureDefinition/Consent/nNGM"
                    ]
                },
                "status": "active",
                "scope": {
                    "coding":  [
                        {
                            "system": "http://terminology.hl7.org/CodeSystem/consentscope",
                            "code": "patient-privacy"
                        }
                    ]
                },
                "category":  [
                    {
                        "coding":  [
                            {
                                "system": "http://loinc.org",
                                "code": "59284-0"
                            }
                        ]
                    }
                ],
                "patient": {
                    "reference": "https://vonk.fhir.dev.healex.systems/administration/Patient/ZK82KVLQ"
                },
                "provision": {
                    "type": "permit"
                },
                "policy":  [
                    {
                        "authority": "https://www.nngm.de/"
                    }
                ],
                "policyRule":  [
                    {
                        "coding":  [
                            {
                                "system": "http://uk-koeln.de/fhir/CodeSystem/nngm/nngm-consent-policy",
                                "code": "WPI",
                                "display": "Weitergabe pseudonymisierter krankheitsbezogener Daten (MDAT) innerhalb des nNGM und an kooperierende Partner"
                            }
                        ]
                    }
                ],
                "dateTime": "2019-11-01"
            }
        },
        {
            "resource": {
                "resourceType": "Consent",
                "id": "74898123-ab0a-4d06-a3ea-87dbd3521083",
                "meta": {
                    "profile":  [
                        "http://uk-koeln.de/fhir/StructureDefinition/Consent/nNGM"
                    ]
                },
                "status": "active",
                "scope": {
                    "coding":  [
                        {
                            "system": "http://terminology.hl7.org/CodeSystem/consentscope",
                            "code": "patient-privacy"
                        }
                    ]
                },
                "category":  [
                    {
                        "coding":  [
                            {
                                "system": "http://loinc.org",
                                "code": "59284-0"
                            }
                        ]
                    }
                ],
                "patient": {
                    "reference": "https://vonk.fhir.dev.healex.systems/administration/Patient/ZK82KVLQ"
                },
                "provision": {
                    "type": "deny"
                },
                "policy":  [
                    {
                        "authority": "https://www.nngm.de/"
                    }
                ],
                "policyRule":  [
                    {
                        "coding":  [
                            {
                                "system": "http://uk-koeln.de/fhir/CodeSystem/nngm/nngm-consent-policy",
                                "code": "WP",
                                "display": "Weitergabe von MDAT und Resttumorproben innerhalb des nNGM und an kooperierende Partner"
                            }
                        ]
                    }
                ],
                "dateTime": {
                    "extension":  [
                        {
                            "url": "http://hl7.org/fhir/StructureDefinition/data-absent-reason",
                            "valueCode": "not-asked"
                        }
                    ]
                }
            }
        },
        {
            "resource": {
                "resourceType": "Consent",
                "id": "4f7fc447-cea2-4845-93bc-2c0fc69f9a2c",
                "meta": {
                    "profile":  [
                        "http://uk-koeln.de/fhir/StructureDefinition/Consent/nNGM"
                    ]
                },
                "status": "active",
                "scope": {
                    "coding":  [
                        {
                            "system": "http://terminology.hl7.org/CodeSystem/consentscope",
                            "code": "patient-privacy"
                        }
                    ]
                },
                "category":  [
                    {
                        "coding":  [
                            {
                                "system": "http://loinc.org",
                                "code": "59284-0"
                            }
                        ]
                    }
                ],
                "patient": {
                    "reference": "https://vonk.fhir.dev.healex.systems/administration/Patient/ZK82KVLQ"
                },
                "provision": {
                    "type": "deny"
                },
                "policy":  [
                    {
                        "authority": "https://www.nngm.de/"
                    }
                ],
                "policyRule":  [
                    {
                        "coding":  [
                            {
                                "system": "http://uk-koeln.de/fhir/CodeSystem/nngm/nngm-consent-policy",
                                "code": "WD",
                                "display": "Weitergabe pseudonymisierter krankheitsbezogener Daten (MDAT) in ein Drittland"
                            }
                        ]
                    }
                ],
                "dateTime": {
                    "extension":  [
                        {
                            "url": "http://hl7.org/fhir/StructureDefinition/data-absent-reason",
                            "valueCode": "not-asked"
                        }
                    ]
                }
            }
        },
        {
            "resource": {
                "resourceType": "Consent",
                "id": "8d24b42b-30b3-4682-a048-a11fe2c85035",
                "meta": {
                    "profile":  [
                        "http://uk-koeln.de/fhir/StructureDefinition/Consent/nNGM"
                    ]
                },
                "status": "active",
                "scope": {
                    "coding":  [
                        {
                            "system": "http://terminology.hl7.org/CodeSystem/consentscope",
                            "code": "patient-privacy"
                        }
                    ]
                },
                "category":  [
                    {
                        "coding":  [
                            {
                                "system": "http://loinc.org",
                                "code": "59284-0"
                            }
                        ]
                    }
                ],
                "patient": {
                    "reference": "https://vonk.fhir.dev.healex.systems/administration/Patient/ZK82KVLQ"
                },
                "provision": {
                    "type": "deny"
                },
                "policy":  [
                    {
                        "authority": "https://www.nngm.de/"
                    }
                ],
                "policyRule":  [
                    {
                        "coding":  [
                            {
                                "system": "http://uk-koeln.de/fhir/CodeSystem/nngm/nngm-consent-policy",
                                "code": "WR",
                                "display": "Weitergabe von MDAT und Resttumorproben in ein Drittland"
                            }
                        ]
                    }
                ],
                "dateTime": {
                    "extension":  [
                        {
                            "url": "http://hl7.org/fhir/StructureDefinition/data-absent-reason",
                            "valueCode": "not-asked"
                        }
                    ]
                }
            }
        },
        {
            "resource": {
                "resourceType": "Consent",
                "id": "e8e1cbba-b07d-47c7-a21b-25152d154e96",
                "meta": {
                    "profile":  [
                        "http://uk-koeln.de/fhir/StructureDefinition/Consent/nNGM"
                    ]
                },
                "status": "active",
                "scope": {
                    "coding":  [
                        {
                            "system": "http://terminology.hl7.org/CodeSystem/consentscope",
                            "code": "patient-privacy"
                        }
                    ]
                },
                "category":  [
                    {
                        "coding":  [
                            {
                                "system": "http://loinc.org",
                                "code": "59284-0"
                            }
                        ]
                    }
                ],
                "patient": {
                    "reference": "https://vonk.fhir.dev.healex.systems/administration/Patient/ZK82KVLQ"
                },
                "provision": {
                    "type": "deny"
                },
                "policy":  [
                    {
                        "authority": "https://www.nngm.de/"
                    }
                ],
                "policyRule":  [
                    {
                        "coding":  [
                            {
                                "system": "http://uk-koeln.de/fhir/CodeSystem/nngm/nngm-consent-policy",
                                "code": "WPK",
                                "display": "Weitergabe pseudonymisierter krankheitsbezogener Daten (MDAT) zur kommerziellen Nutzung"
                            }
                        ]
                    }
                ],
                "dateTime": {
                    "extension":  [
                        {
                            "url": "http://hl7.org/fhir/StructureDefinition/data-absent-reason",
                            "valueCode": "not-asked"
                        }
                    ]
                }
            }
        },
        {
            "resource": {
                "resourceType": "Consent",
                "id": "950eddef-ceec-4e17-b583-643b4027427b",
                "meta": {
                    "profile":  [
                        "http://uk-koeln.de/fhir/StructureDefinition/Consent/nNGM"
                    ]
                },
                "status": "active",
                "scope": {
                    "coding":  [
                        {
                            "system": "http://terminology.hl7.org/CodeSystem/consentscope",
                            "code": "patient-privacy"
                        }
                    ]
                },
                "category":  [
                    {
                        "coding":  [
                            {
                                "system": "http://loinc.org",
                                "code": "59284-0"
                            }
                        ]
                    }
                ],
                "patient": {
                    "reference": "https://vonk.fhir.dev.healex.systems/administration/Patient/ZK82KVLQ"
                },
                "provision": {
                    "type": "deny"
                },
                "policy":  [
                    {
                        "authority": "https://www.nngm.de/"
                    }
                ],
                "policyRule":  [
                    {
                        "coding":  [
                            {
                                "system": "http://uk-koeln.de/fhir/CodeSystem/nngm/nngm-consent-policy",
                                "code": "WK",
                                "display": "Weitergabe von MDAT und Resttumorproben zur kommerziellen Nutzung"
                            }
                        ]
                    }
                ],
                "dateTime": {
                    "extension":  [
                        {
                            "url": "http://hl7.org/fhir/StructureDefinition/data-absent-reason",
                            "valueCode": "not-asked"
                        }
                    ]
                }
            }
        },
        {
            "resource": {
                "resourceType": "Consent",
                "id": "67492da5-4569-4984-9a9e-5c027c5085d1",
                "meta": {
                    "profile":  [
                        "http://uk-koeln.de/fhir/StructureDefinition/Consent/nNGM"
                    ]
                },
                "status": "active",
                "scope": {
                    "coding":  [
                        {
                            "system": "http://terminology.hl7.org/CodeSystem/consentscope",
                            "code": "patient-privacy"
                        }
                    ]
                },
                "category":  [
                    {
                        "coding":  [
                            {
                                "system": "http://loinc.org",
                                "code": "59284-0"
                            }
                        ]
                    }
                ],
                "patient": {
                    "reference": "https://vonk.fhir.dev.healex.systems/administration/Patient/ZK82KVLQ"
                },
                "provision": {
                    "type": "permit"
                },
                "policy":  [
                    {
                        "authority": "https://www.nngm.de/"
                    }
                ],
                "policyRule":  [
                    {
                        "coding":  [
                            {
                                "system": "http://uk-koeln.de/fhir/CodeSystem/nngm/nngm-consent-policy",
                                "code": "KW",
                                "display": "Kontaktaufnahme des nNGM-Zentrums zu einem späteren Zeitpunkt zur Gewinnung weiterer Informationen über den Behandlungsverlauf"
                            }
                        ]
                    }
                ],
                "dateTime": "2019-11-01"
            }
        },
        {
            "resource": {
                "resourceType": "Consent",
                "id": "61b83cfe-3833-4f2b-95b9-5def9c43604f",
                "meta": {
                    "profile":  [
                        "http://uk-koeln.de/fhir/StructureDefinition/Consent/nNGM"
                    ]
                },
                "status": "active",
                "scope": {
                    "coding":  [
                        {
                            "system": "http://terminology.hl7.org/CodeSystem/consentscope",
                            "code": "patient-privacy"
                        }
                    ]
                },
                "category":  [
                    {
                        "coding":  [
                            {
                                "system": "http://loinc.org",
                                "code": "59284-0"
                            }
                        ]
                    }
                ],
                "patient": {
                    "reference": "https://vonk.fhir.dev.healex.systems/administration/Patient/ZK82KVLQ"
                },
                "provision": {
                    "type": "permit"
                },
                "policy":  [
                    {
                        "authority": "https://www.nngm.de/"
                    }
                ],
                "policyRule":  [
                    {
                        "coding":  [
                            {
                                "system": "http://uk-koeln.de/fhir/CodeSystem/nngm/nngm-consent-policy",
                                "code": "KE",
                                "display": "Kontaktaufnahme des nNGM-Zentrums zum Zweck des Einschlusses in eine mögliche infrage kommende neue Studie"
                            }
                        ]
                    }
                ],
                "dateTime": "2019-11-01"
            }
        },
        {
            "resource": {
                "resourceType": "Specimen",
                "id": "239592c0-a14a-41e1-bc95-d7fc80e3c3d6",
                "meta": {
                    "profile":  [
                        "http://uk-koeln.de/fhir/StructureDefinition/Specimen/nNGM"
                    ]
                },
                "subject": {
                    "reference": "https://vonk.fhir.dev.healex.systems/administration/Patient/ZK82KVLQ"
                },
                "identifier":  [
                    {
                        "system": "http://uk-koeln.de/NamingSystem/nNGM/zuuntersuchendesmaterial",
                        "value": "E123456/19"
                    },
                    {
                        "system": "http://uk-koeln.de/NamingSystem/nNGM/biopsienummer",
                        "value": "1"
                    }
                ],
                "type":  [
                    {
                        "coding":  [
                            {
                                "system": "http://snomed.info/sct",
                                "version": "http://snomed.info/sct/900000000000207008",
                                "code": {
                                    "extension":  [
                                        {
                                            "url": "http://hl7.org/fhir/StructureDefinition/data-absent-reason",
                                            "valueCode": "not-asked"
                                        }
                                    ]
                                }
                            }
                        ]
                    }
                ],
                "collection": {
                    "collectedDateTime": "2019-11-01"
                },
                "extension":  [
                    {
                        "url": "http://uk-koeln.de/fhir/StructureDefinition/Extension/nNGM/aufenthaltsart",
                        "valueCodeableConcept": {
                            "coding":  [
                                {
                                    "system": " http://hl7.org/fhir/v3/ActCode",
                                    "code": "IMP",
                                    "display": "inpatient encounter"
                                }
                            ]
                        }
                    }
                ]
            }
        },
        {
            "resource": {
                "resourceType": "Observation",
                "id": "e2480a3e-e308-44ae-9b58-4c33bf656766",
                "meta": {
                    "profile":  [
                        "http://uk-koeln.de/fhir/StructureDefinition/Observation/nNGM/tumorstadium"
                    ]
                },
                "status": "final",
                "category":  [
                    {
                        "coding":  [
                            {
                                "system": "http://hl7.org/fhir/observation-category",
                                "code": "survey"
                            }
                        ]
                    }
                ],
                "code": {
                    "coding":  [
                        {
                            "code": {
                                "extension":  [
                                    {
                                        "url": "http://hl7.org/fhir/StructureDefinition/data-absent-reason",
                                        "valueCode": "not-asked"
                                    }
                                ]
							},
							"system": {
                                "extension":  [
                                    {
                                        "url": "http://hl7.org/fhir/StructureDefinition/data-absent-reason",
                                        "valueCode": "not-asked"
                                    }
                                ]
                            }
                        }
                    ]
                },
                "subject": {
                    "reference": "https://vonk.fhir.dev.healex.systems/administration/Patient/ZK82KVLQ"
                },
                "extension":  [
                    {
                        "url": "http://uk-koeln.de/fhir/StructureDefinition/Extension/nngm/tnm-erstdiagnose",
                        "valueBoolean": true
                    },
                    {
                        "url": "http://uk-koeln.de/fhir/StructureDefinition/Extension/nngm/tnm-kurativ-operabel",
                        "valueBoolean": false
                    }
                ],
                "effectiveDateTime": "2019-11-05",
                "component":  [
                    {
                        "code": {
                            "coding":  [
                                {
                                    "system": "http://loinc.org",
                                    "code": "21905-5"
                                }
                            ]
                        },
                        "valueCodeableConcept": {
                            "coding":  [
                                {
                                    "system": "urn:oid:1.2.276.0.76.3.1.131.1.5.143",
									"code": "T2a",
									"version": {
										"extension":  [
											{
												"url": "http://hl7.org/fhir/StructureDefinition/data-absent-reason",
												"valueCode": "not-asked"
											}
										]
									}
                                }
                            ]
                        },
                        "extension":  [
                            {
                                "url": "http://uk-koeln.de/fhir/StructureDefinition/Extension/nngm/tnm-praefix-cpu",
                                "valueCodeableConcept": {
                                    "text": "T-praefix slice",
                                    "coding":  [
                                        {
                                            "system": "urn:oid:2.16.840.1.113883.15.16",
											"code": "c - klinisch gesichert"
                                        }
                                    ]
                                }
                            }
                        ]
                    },
                    {
                        "code": {
                            "coding":  [
                                {
                                    "system": "http://loinc.org",
									"code": "21906-3",
									"version": {
										"extension":  [
											{
												"url": "http://hl7.org/fhir/StructureDefinition/data-absent-reason",
												"valueCode": "not-asked"
											}
										]
									}
                                }
                            ]
                        },
                        "valueCodeableConcept": {
                            "coding":  [
                                {
                                    "system": "urn:oid:1.2.276.0.76.3.1.131.1.5.141",
									"code": "N2a",
									"version": {
										"extension":  [
											{
												"url": "http://hl7.org/fhir/StructureDefinition/data-absent-reason",
												"valueCode": "not-asked"
											}
										]
									}
                                }
                            ]
                        },
                        "extension":  [
                            {
                                "url": "http://uk-koeln.de/fhir/StructureDefinition/Extension/nngm/tnm-praefix-cpu",
                                "valueCodeableConcept": {
                                    "coding":  [
                                        {
                                            "system": "urn:oid:2.16.840.1.113883.15.16",
                                            "code": "c - klinisch gesichert"
                                        }
                                    ],
                                    "text": "N-praefix slice"
                                }
                            }
                        ]
                    },
                    {
                        "code": {
                            "coding":  [
                                {
                                    "system": "http://loinc.org",
                                    "code": "21907-1"
                                }
                            ]
                        },
                        "valueCodeableConcept": {
                            "coding":  [
                                {
                                    "system": "urn:oid:1.2.276.0.76.3.1.131.1.5.142",
									"code": "M1b",
									"version": {
										"extension":  [
											{
												"url": "http://hl7.org/fhir/StructureDefinition/data-absent-reason",
												"valueCode": "not-asked"
											}
										]
									}
                                }
                            ]
                        },
                        "extension":  [
                            {
                                "url": "http://uk-koeln.de/fhir/StructureDefinition/Extension/nngm/tnm-praefix-cpu",
                                "valueCodeableConcept": {
                                    "coding":  [
                                        {
                                            "system": "urn:oid:2.16.840.1.113883.15.16",
                                            "code": "c - klinisch gesichert"
                                        }
                                    ],
                                    "text": "M-praefix slice"
                                }
                            }
                        ]
                    }
                ],
                "valueCodeableConcept": {
                    "coding":  [
                        {
                            "system": "urn:oid:2.16.840.1.113883.15.16",
                            "code": "IVB",
                            "version": "8. Auflage"
                        }
                    ]
                }
            }
        }
    ]
}
